SpectraSuite Data File
++++++++++++++++++++++++++++++++++++
Date: Mon May 11 14:15:37 CEST 2020
User: ma3468an-s
Dark Spectrum Present: No
Reference Spectrum Present: No
Number of Sampled Component Spectra: 1
Spectrometers: USB2G47824
Integration Time (usec): 100000 (USB2G47824)
Spectra Averaged: 1 (USB2G47824)
Boxcar Smoothing: 0 (USB2G47824)
Correct for Electrical Dark: No (USB2G47824)
Strobe/Lamp Enabled: No (USB2G47824)
Correct for Detector Non-linearity: No (USB2G47824)
Correct for Stray Light: No (USB2G47824)
Number of Pixels in Processed Spectrum: 651
>>>>>Begin Processed Spectral Data<<<<<
350,00	174,04
351,00	174,93
352,00	172,84
353,00	174,37
354,00	177,10
355,00	175,92
356,00	170,40
357,00	176,18
358,00	173,26
359,00	175,31
360,00	172,82
361,00	175,02
362,00	178,42
363,00	179,97
364,00	181,10
365,00	178,97
366,00	175,59
367,00	177,85
368,00	179,24
369,00	179,68
370,00	178,17
371,00	174,92
372,00	180,39
373,00	184,36
374,00	182,96
375,00	181,92
376,00	179,13
377,00	181,04
378,00	180,88
379,00	181,57
380,00	180,88
381,00	181,44
382,00	184,23
383,00	176,68
384,00	174,53
385,00	178,08
386,00	185,24
387,00	182,11
388,00	182,01
389,00	183,59
390,00	182,91
391,00	184,03
392,00	187,79
393,00	184,69
394,00	184,89
395,00	182,65
396,00	179,07
397,00	181,88
398,00	181,71
399,00	184,91
400,00	188,30
401,00	186,94
402,00	177,26
403,00	188,09
404,00	187,42
405,00	189,03
406,00	183,09
407,00	181,44
408,00	185,53
409,00	186,36
410,00	184,76
411,00	181,42
412,00	189,86
413,00	186,97
414,00	186,49
415,00	185,64
416,00	189,45
417,00	187,83
418,00	187,85
419,00	181,70
420,00	185,76
421,00	191,08
422,00	187,39
423,00	188,60
424,00	187,98
425,00	192,49
426,00	195,27
427,00	189,01
428,00	186,65
429,00	184,53
430,00	185,10
431,00	189,67
432,00	191,90
433,00	197,91
434,00	189,85
435,00	187,57
436,00	194,43
437,00	194,29
438,00	198,39
439,00	196,03
440,00	193,97
441,00	195,87
442,00	193,76
443,00	198,04
444,00	193,82
445,00	193,67
446,00	199,53
447,00	204,62
448,00	196,12
449,00	195,43
450,00	194,82
451,00	205,86
452,00	201,59
453,00	200,88
454,00	199,55
455,00	198,40
456,00	205,78
457,00	206,72
458,00	201,64
459,00	202,22
460,00	199,00
461,00	202,33
462,00	202,19
463,00	198,62
464,00	202,16
465,00	200,55
466,00	201,42
467,00	207,96
468,00	207,33
469,00	199,87
470,00	206,87
471,00	203,22
472,00	206,99
473,00	205,80
474,00	194,10
475,00	209,14
476,00	208,18
477,00	214,42
478,00	206,42
479,00	208,00
480,00	208,73
481,00	213,05
482,00	222,90
483,00	214,88
484,00	216,88
485,00	219,03
486,00	214,25
487,00	205,55
488,00	215,03
489,00	219,00
490,00	214,52
491,00	223,95
492,00	219,57
493,00	223,53
494,00	219,80
495,00	219,47
496,00	221,83
497,00	221,86
498,00	219,49
499,00	221,12
500,00	223,31
501,00	224,50
502,00	229,22
503,00	223,33
504,00	225,46
505,00	224,33
506,00	225,23
507,00	227,65
508,00	222,88
509,00	231,89
510,00	224,47
511,00	227,61
512,00	225,21
513,00	223,03
514,00	234,86
515,00	228,05
516,00	227,97
517,00	231,21
518,00	228,32
519,00	219,25
520,00	226,28
521,00	227,21
522,00	236,16
523,00	228,92
524,00	234,07
525,00	240,10
526,00	234,87
527,00	222,38
528,00	231,41
529,00	238,27
530,00	231,87
531,00	238,02
532,00	239,71
533,00	235,51
534,00	228,00
535,00	233,78
536,00	237,27
537,00	237,16
538,00	233,17
539,00	230,25
540,00	235,70
541,00	237,64
542,00	231,94
543,00	235,87
544,00	238,72
545,00	247,62
546,00	247,17
547,00	247,12
548,00	251,08
549,00	244,70
550,00	259,86
551,00	252,33
552,00	255,41
553,00	268,56
554,00	282,71
555,00	274,74
556,00	280,78
557,00	286,33
558,00	287,91
559,00	289,40
560,00	302,43
561,00	325,71
562,00	316,41
563,00	330,19
564,00	349,91
565,00	356,18
566,00	386,94
567,00	411,17
568,00	517,78
569,00	434,27
570,00	468,19
571,00	505,64
572,00	546,56
573,00	609,14
574,00	673,55
575,00	724,61
576,00	782,42
577,00	892,86
578,00	980,94
579,00	1062,49
580,00	1176,13
581,00	1379,39
582,00	1535,62
583,00	1689,42
584,00	1888,63
585,00	2059,48
586,00	2270,89
587,00	2610,33
588,00	2982,50
589,00	3269,75
590,00	3312,19
591,00	3193,94
592,00	2838,35
593,00	2267,94
594,00	1752,99
595,00	1316,12
596,00	969,57
597,00	785,88
598,00	640,37
599,00	534,26
600,00	459,09
601,00	423,27
602,00	368,94
603,00	337,82
604,00	319,15
605,00	293,65
606,00	284,10
607,00	267,97
608,00	249,88
609,00	250,96
610,00	245,15
611,00	237,37
612,00	239,29
613,00	233,97
614,00	225,25
615,00	223,41
616,00	221,66
617,00	225,99
618,00	216,45
619,00	217,19
620,00	217,93
621,00	212,61
622,00	216,40
623,00	221,48
624,00	214,80
625,00	209,20
626,00	209,38
627,00	210,24
628,00	203,23
629,00	203,03
630,00	212,67
631,00	213,22
632,00	204,89
633,00	210,83
634,00	209,46
635,00	204,32
636,00	212,95
637,00	205,27
638,00	209,43
639,00	212,64
640,00	203,26
641,00	207,02
642,00	206,23
643,00	211,18
644,00	210,98
645,00	202,92
646,00	205,92
647,00	202,89
648,00	206,41
649,00	201,23
650,00	207,54
651,00	201,02
652,00	204,15
653,00	197,23
654,00	198,39
655,00	206,27
656,00	197,94
657,00	197,09
658,00	204,37
659,00	198,48
660,00	200,63
661,00	198,30
662,00	200,01
663,00	200,86
664,00	202,21
665,00	196,34
666,00	193,93
667,00	206,66
668,00	201,15
669,00	202,82
670,00	199,92
671,00	197,72
672,00	198,33
673,00	196,25
674,00	195,21
675,00	200,00
676,00	203,79
677,00	204,96
678,00	191,55
679,00	197,35
680,00	198,68
681,00	197,52
682,00	193,79
683,00	195,63
684,00	197,38
685,00	193,04
686,00	187,94
687,00	192,83
688,00	194,10
689,00	189,95
690,00	189,37
691,00	196,17
692,00	187,99
693,00	191,14
694,00	191,04
695,00	185,48
696,00	186,83
697,00	193,08
698,00	192,95
699,00	192,86
700,00	191,83
701,00	187,97
702,00	187,24
703,00	187,62
704,00	189,40
705,00	193,22
706,00	190,20
707,00	187,36
708,00	189,19
709,00	186,65
710,00	188,56
711,00	190,25
712,00	186,76
713,00	194,94
714,00	191,49
715,00	189,70
716,00	195,14
717,00	181,87
718,00	187,29
719,00	184,35
720,00	187,88
721,00	186,78
722,00	189,22
723,00	190,04
724,00	185,51
725,00	188,38
726,00	188,47
727,00	186,68
728,00	187,30
729,00	182,85
730,00	187,17
731,00	184,92
732,00	185,24
733,00	189,65
734,00	182,11
735,00	185,38
736,00	183,01
737,00	186,13
738,00	182,11
739,00	185,68
740,00	185,89
741,00	199,87
742,00	188,44
743,00	185,31
744,00	189,12
745,00	182,17
746,00	181,19
747,00	184,08
748,00	182,62
749,00	182,77
750,00	184,95
751,00	185,08
752,00	180,16
753,00	183,71
754,00	181,79
755,00	184,18
756,00	183,84
757,00	190,37
758,00	180,71
759,00	180,09
760,00	180,04
761,00	181,89
762,00	180,98
763,00	179,97
764,00	180,06
765,00	181,83
766,00	184,93
767,00	185,71
768,00	185,03
769,00	185,64
770,00	183,72
771,00	182,23
772,00	181,47
773,00	179,43
774,00	176,75
775,00	181,07
776,00	182,91
777,00	181,47
778,00	189,60
779,00	187,03
780,00	183,95
781,00	181,28
782,00	182,66
783,00	182,91
784,00	182,71
785,00	194,84
786,00	183,40
787,00	176,41
788,00	187,32
789,00	183,61
790,00	180,00
791,00	182,30
792,00	186,00
793,00	178,13
794,00	183,35
795,00	183,13
796,00	181,34
797,00	181,51
798,00	180,73
799,00	179,10
800,00	180,67
801,00	178,78
802,00	180,03
803,00	186,41
804,00	180,87
805,00	181,02
806,00	181,03
807,00	178,91
808,00	177,97
809,00	178,29
810,00	176,00
811,00	177,94
812,00	173,12
813,00	172,80
814,00	180,80
815,00	177,31
816,00	177,87
817,00	176,74
818,00	175,94
819,00	179,88
820,00	174,64
821,00	181,18
822,00	177,59
823,00	179,85
824,00	180,37
825,00	179,96
826,00	181,94
827,00	176,08
828,00	177,57
829,00	182,52
830,00	179,87
831,00	175,00
832,00	179,98
833,00	181,88
834,00	183,06
835,00	178,20
836,00	184,90
837,00	180,76
838,00	181,15
839,00	177,98
840,00	180,52
841,00	182,26
842,00	178,33
843,00	181,93
844,00	183,05
845,00	182,04
846,00	180,44
847,00	179,47
848,00	276,80
849,00	183,71
850,00	178,94
851,00	175,19
852,00	179,92
853,00	173,41
854,00	181,76
855,00	183,96
856,00	176,36
857,00	183,23
858,00	183,86
859,00	182,90
860,00	177,05
861,00	182,22
862,00	178,79
863,00	184,14
864,00	179,50
865,00	177,05
866,00	181,75
867,00	179,16
868,00	185,76
869,00	182,89
870,00	180,24
871,00	180,30
872,00	176,50
873,00	176,35
874,00	181,84
875,00	176,00
876,00	172,53
877,00	174,51
878,00	179,99
879,00	179,45
880,00	178,16
881,00	177,18
882,00	180,93
883,00	178,78
884,00	184,19
885,00	178,15
886,00	179,95
887,00	177,30
888,00	178,92
889,00	180,71
890,00	179,03
891,00	176,33
892,00	178,47
893,00	182,72
894,00	185,08
895,00	176,18
896,00	177,88
897,00	181,29
898,00	181,78
899,00	177,18
900,00	178,13
901,00	178,98
902,00	179,30
903,00	178,48
904,00	180,89
905,00	169,65
906,00	170,35
907,00	178,81
908,00	181,93
909,00	177,01
910,00	181,74
911,00	178,35
912,00	177,82
913,00	175,75
914,00	176,98
915,00	177,83
916,00	170,88
917,00	186,87
918,00	181,09
919,00	182,68
920,00	183,86
921,00	181,03
922,00	180,31
923,00	182,98
924,00	176,93
925,00	176,72
926,00	179,44
927,00	180,01
928,00	181,93
929,00	181,30
930,00	181,93
931,00	175,59
932,00	179,55
933,00	182,98
934,00	184,55
935,00	178,48
936,00	178,97
937,00	179,16
938,00	179,66
939,00	177,49
940,00	182,57
941,00	186,73
942,00	181,75
943,00	179,21
944,00	176,82
945,00	178,94
946,00	177,56
947,00	171,94
948,00	173,53
949,00	173,74
950,00	177,58
951,00	174,20
952,00	176,02
953,00	176,55
954,00	178,63
955,00	181,70
956,00	178,21
957,00	181,63
958,00	183,36
959,00	177,10
960,00	177,81
961,00	182,18
962,00	171,44
963,00	177,12
964,00	170,39
965,00	175,10
966,00	178,88
967,00	185,01
968,00	181,27
969,00	180,33
970,00	186,41
971,00	176,97
972,00	177,64
973,00	181,98
974,00	176,98
975,00	180,18
976,00	176,05
977,00	181,23
978,00	177,43
979,00	178,64
980,00	179,25
981,00	176,83
982,00	179,20
983,00	183,14
984,00	185,99
985,00	182,98
986,00	186,69
987,00	177,33
988,00	176,42
989,00	177,49
990,00	178,00
991,00	183,20
992,00	177,21
993,00	184,12
994,00	182,63
995,00	181,48
996,00	179,47
997,00	176,15
998,00	175,65
999,00	177,47
1000,00	179,59
>>>>>End Processed Spectral Data<<<<<
